Folder: composite

File: FatigueLife.csv
Matrix material,Reinforcement material,Volume fraction,Processing method,Microstructure type,RVE Size,Average particle size,Matrix Young's modulus,Reinforcement  Young's modulus,Matrix Poisson ratio,Reinforcement Poisson ratio,Matrix density ,  Reinforcement density,Composite Young's modulus,"Composite Yield Strength, ?y (MPa)",Composite fracture stress,Composite fracture strain,Cyclic loading conditions,Three-point bending model dimensions,Loading Type,Stress ratio,Frequency,Fatigue strength coefficient,Fatigue ductility coefficient  ,Cyclic strength coefficient,Cyclic strain hardening exponent,Load,Fatigue life
1,1,10,1,1,1,0.8,70,410,0.33,0.17,2700,3200,77.55,136,205,0.093,1,1,1,0,15,364,0.242,401.69,0.1528,1950,810
1,1,10,1,1,1,0.8,70,410,0.33,0.17,2700,3200,77.55,136,205,0.093,1,1,1,0,15,364,0.242,401.69,0.1528,1910,1472
1,1,10,1,1,1,0.8,70,410,0.33,0.17,2700,3200,77.55,136,205,0.093,1,1,1,0,15,364,0.242,401.69,0.1528,1870,1817
1,1,10,1,1,1,0.8,70,410,0.33,0.17,2700,3200,77.55,136,205,0.093,1,1,1,0,15,364,0.242,401.69,0.1528,1830,2265
1,1,10,1,1,1,0.8,70,410,0.33,0.17,2700,3200,77.55,136,205,0.093,1,1,1,0,15,364,0.242,401.69,0.1528,1790,2603
1,1,10,1,1,1,0.8,70,410,0.33,0.17,2700,3200,77.55,136,205,0.093,1,1,1,0,15,364,0.242,401.69,0.1528,1750,3220
1,1,10,1,1,1,0.8,70,410,0.33,0.17,2700,3200,77.55,136,205,0.093,1,1,1,0,15,364,0.242,401.69,0.1528,1710,3682
1,1,10,1,1,1,0.8,70,410,0.33,0.17,2700,3200,77.55,136,205,0.093,1,1,1,0,15,364,0.242,401.69,0.1528,1670,4223
1,1,10,1,1,1,0.8,70,410,0.33,0.17,2700,3200,77.55,136,205,0.093,1,1,1,0,15,364,0.242,401.69,0.1528,1630,5064
1,1,10,1,1,1,0.8,70,410,0.33,0.17,2700,3200,77.55,136,205,0.093,1,1,1,0,15,364,0.242,401.69,0.1528,1590,5886
1,1,10,1,1,1,0.8,70,410,0.33,0.17,2700,3200,77.55,136,205,0.093,1,1,1,0,15,364,0.242,401.69,0.1528,1550,6655
1,1,20,1,1,1,0.8,70,410,0.33,0.17,2700,3200,88.69,160.7,233.6,0.0574,1,1,1,0,15,407,0.09,433.68,0.14495,1920,770
1,1,20,1,1,1,0.8,70,410,0.33,0.17,2700,3200,88.69,160.7,233.6,0.0574,1,1,1,0,15,407,0.09,433.68,0.14495,1880,910
1,1,20,1,1,1,0.8,70,410,0.33,0.17,2700,3200,88.69,160.7,233.6,0.0574,1,1,1,0,15,407,0.09,433.68,0.14495,1840,1260
1,1,20,1,1,1,0.8,70,410,0.33,0.17,2700,3200,88.69,160.7,233.6,0.0574,1,1,1,0,15,407,0.09,433.68,0.14495,1800,2392
1,1,20,1,1,1,0.8,70,410,0.33,0.17,2700,3200,88.69,160.7,233.6,0.0574,1,1,1,0,15,407,0.09,433.68,0.14495,1760,3753
1,1,20,1,1,1,0.8,70,410,0.33,0.17,2700,3200,88.69,160.7,233.6,0.0574,1,1,1,0,15,407,0.09,433.68,0.14495,1720,6429
1,1,20,1,1,1,0.8,70,410,0.33,0.17,2700,3200,88.69,160.7,233.6,0.0574,1,1,1,0,15,407,0.09,433.68,0.14495,1680,10147
1,1,20,1,1,1,0.8,70,410,0.33,0.17,2700,3200,88.69,160.7,233.6,0.0574,1,1,1,0,15,407,0.09,433.68,0.14495,1640,14135
1,1,20,1,1,1,0.8,70,410,0.33,0.17,2700,3200,88.69,160.7,233.6,0.0574,1,1,1,0,15,407,0.09,433.68,0.14495,1600,16328
1,1,20,1,1,1,0.8,70,410,0.33,0.17,2700,3200,88.69,160.7,233.6,0.0574,1,1,1,0,15,407,0.09,433.68,0.14495,1560,21469
1,1,30,1,1,1,0.8,70,410,0.33,0.17,2700,3200,95.97,235.2,287.6,0.023,1,1,1,0,15,499,0.0602,517,0.1309,1930,999
1,1,30,1,1,1,0.8,70,410,0.33,0.17,2700,3200,95.97,235.2,287.6,0.023,1,1,1,0,15,499,0.0602,517,0.1309,1890,1194
1,1,30,1,1,1,0.8,70,410,0.33,0.17,2700,3200,95.97,235.2,287.6,0.023,1,1,1,0,15,499,0.0602,517,0.1309,1850,1419
1,1,30,1,1,1,0.8,70,410,0.33,0.17,2700,3200,95.97,235.2,287.6,0.023,1,1,1,0,15,499,0.0602,517,0.1309,1810,1823
1,1,30,1,1,1,0.8,70,410,0.33,0.17,2700,3200,95.97,235.2,287.6,0.023,1,1,1,0,15,499,0.0602,517,0.1309,1770,2419
1,1,30,1,1,1,0.8,70,410,0.33,0.17,2700,3200,95.97,235.2,287.6,0.023,1,1,1,0,15,499,0.0602,517,0.1309,1730,3006
1,1,30,1,1,1,0.8,70,410,0.33,0.17,2700,3200,95.97,235.2,287.6,0.023,1,1,1,0,15,499,0.0602,517,0.1309,1690,3618
1,1,30,1,1,1,0.8,70,410,0.33,0.17,2700,3200,95.97,235.2,287.6,0.023,1,1,1,0,15,499,0.0602,517,0.1309,1650,5559
1,1,30,1,1,1,0.8,70,410,0.33,0.17,2700,3200,95.97,235.2,287.6,0.023,1,1,1,0,15,499,0.0602,517,0.1309,1610,7841
1,1,30,1,1,1,0.8,70,410,0.33,0.17,2700,3200,95.97,235.2,287.6,0.023,1,1,1,0,15,499,0.0602,517,0.1309,1570,10818
1,1,40,1,1,1,0.8,70,410,0.33,0.17,2700,3200,105.5,180,226,0.0104,1,1,1,0,15,390.3,0.0159,422,0.1297,1590,822
1,1,40,1,1,1,0.8,70,410,0.33,0.17,2700,3200,105.5,180,226,0.0104,1,1,1,0,15,390.3,0.0159,422,0.1297,1550,1123
1,1,40,1,1,1,0.8,70,410,0.33,0.17,2700,3200,105.5,180,226,0.0104,1,1,1,0,15,390.3,0.0159,422,0.1297,1510,1485
1,1,40,1,1,1,0.8,70,410,0.33,0.17,2700,3200,105.5,180,226,0.0104,1,1,1,0,15,390.3,0.0159,422,0.1297,1470,2026
1,1,40,1,1,1,0.8,70,410,0.33,0.17,2700,3200,105.5,180,226,0.0104,1,1,1,0,15,390.3,0.0159,422,0.1297,1430,2695
1,1,40,1,1,1,0.8,70,410,0.33,0.17,2700,3200,105.5,180,226,0.0104,1,1,1,0,15,390.3,0.0159,422,0.1297,1390,3540
1,1,40,1,1,1,0.8,70,410,0.33,0.17,2700,3200,105.5,180,226,0.0104,1,1,1,0,15,390.3,0.0159,422,0.1297,1350,4072
1,1,40,1,1,1,0.8,70,410,0.33,0.17,2700,3200,105.5,180,226,0.0104,1,1,1,0,15,390.3,0.0159,422,0.1297,1310,4965
1,1,40,1,1,1,0.8,70,410,0.33,0.17,2700,3200,105.5,180,226,0.0104,1,1,1,0,15,390.3,0.0159,422,0.1297,1270,6943
1,1,40,1,1,1,0.8,70,410,0.33,0.17,2700,3200,105.5,180,226,0.0104,1,1,1,0,15,390.3,0.0159,422,0.1297,1230,8400
1,1,50,2,1,1,0.8,70,410,0.33,0.17,2700,3200,135.6,150,192,0.00352,1,1,1,0,15,339,0.0178,315.84,0.1052,1000,747
1,1,50,2,1,1,0.8,70,410,0.33,0.17,2700,3200,135.6,150,192,0.00352,1,1,1,0,15,339,0.0178,315.84,0.1052,960,907
1,1,50,2,1,1,0.8,70,410,0.33,0.17,2700,3200,135.6,150,192,0.00352,1,1,1,0,15,339,0.0178,315.84,0.1052,920,1028
1,1,50,2,1,1,0.8,70,410,0.33,0.17,2700,3200,135.6,150,192,0.00352,1,1,1,0,15,339,0.0178,315.84,0.1052,880,1341
1,1,50,2,1,1,0.8,70,410,0.33,0.17,2700,3200,135.6,150,192,0.00352,1,1,1,0,15,339,0.0178,315.84,0.1052,840,1656
1,1,50,2,1,1,0.8,70,410,0.33,0.17,2700,3200,135.6,150,192,0.00352,1,1,1,0,15,339,0.0178,315.84,0.1052,800,2057
1,1,50,2,1,1,0.8,70,410,0.33,0.17,2700,3200,135.6,150,192,0.00352,1,1,1,0,15,339,0.0178,315.84,0.1052,760,3628
1,1,50,2,1,1,0.8,70,410,0.33,0.17,2700,3200,135.6,150,192,0.00352,1,1,1,0,15,339,0.0178,315.84,0.1052,720,6448
1,1,50,2,1,1,0.8,70,410,0.33,0.17,2700,3200,135.6,150,192,0.00352,1,1,1,0,15,339,0.0178,315.84,0.1052,680,10919
1,1,60,2,1,1,0.8,70,410,0.33,0.17,2700,3200,138.5,180,214,0.00327,1,1,1,0,15,373.9,0.0164,331.7,0.1,1000,784.2
1,1,60,2,1,1,0.8,70,410,0.33,0.17,2700,3200,138.5,180,214,0.00327,1,1,1,0,15,373.9,0.0164,331.7,0.1,960,1025.93
1,1,60,2,1,1,0.8,70,410,0.33,0.17,2700,3200,138.5,180,214,0.00327,1,1,1,0,15,373.9,0.0164,331.7,0.1,920,1366.9
1,1,60,2,1,1,0.8,70,410,0.33,0.17,2700,3200,138.5,180,214,0.00327,1,1,1,0,15,373.9,0.0164,331.7,0.1,880,1636
1,1,60,2,1,1,0.8,70,410,0.33,0.17,2700,3200,138.5,180,214,0.00327,1,1,1,0,15,373.9,0.0164,331.7,0.1,840,2385
1,1,60,2,1,1,0.8,70,410,0.33,0.17,2700,3200,138.5,180,214,0.00327,1,1,1,0,15,373.9,0.0164,331.7,0.1,800,3069
1,1,60,2,1,1,0.8,70,410,0.33,0.17,2700,3200,138.5,180,214,0.00327,1,1,1,0,15,373.9,0.0164,331.7,0.1,760,5151.3
1,1,60,2,1,1,0.8,70,410,0.33,0.17,2700,3200,138.5,180,214,0.00327,1,1,1,0,15,373.9,0.0164,331.7,0.1,720,8295.6
1,1,60,2,1,1,0.8,70,410,0.33,0.17,2700,3200,138.5,180,214,0.00327,1,1,1,0,15,373.9,0.0164,331.7,0.1,680,16790.6
1,1,70,2,1,1,0.8,70,410,0.33,0.17,2700,3200,140.96,210,250,0.0028,1,1,1,0,15,436.92,0.0149,353,0.0899,1000,1545.05
1,1,70,2,1,1,0.8,70,410,0.33,0.17,2700,3200,140.96,210,250,0.0028,1,1,1,0,15,436.92,0.0149,353,0.0899,960,1748.6
1,1,70,2,1,1,0.8,70,410,0.33,0.17,2700,3200,140.96,210,250,0.0028,1,1,1,0,15,436.92,0.0149,353,0.0899,920,2099
1,1,70,2,1,1,0.8,70,410,0.33,0.17,2700,3200,140.96,210,250,0.0028,1,1,1,0,15,436.92,0.0149,353,0.0899,880,2796.79
1,1,70,2,1,1,0.8,70,410,0.33,0.17,2700,3200,140.96,210,250,0.0028,1,1,1,0,15,436.92,0.0149,353,0.0899,840,4089
1,1,70,2,1,1,0.8,70,410,0.33,0.17,2700,3200,140.96,210,250,0.0028,1,1,1,0,15,436.92,0.0149,353,0.0899,800,6403
1,1,70,2,1,1,0.8,70,410,0.33,0.17,2700,3200,140.96,210,250,0.0028,1,1,1,0,15,436.92,0.0149,353,0.0899,760,8903.157
1,1,70,2,1,1,0.8,70,410,0.33,0.17,2700,3200,140.96,210,250,0.0028,1,1,1,0,15,436.92,0.0149,353,0.0899,720,12465.6
1,1,70,2,1,1,0.8,70,410,0.33,0.17,2700,3200,140.96,210,250,0.0028,1,1,1,0,15,436.92,0.0149,353,0.0899,680,22164.6
1,1,70,2,1,1,0.8,70,410,0.33,0.17,2700,3200,140.96,210,250,0.0028,1,1,1,0,15,436.92,0.0149,353,0.0899,650,29761

File: ModulasStrainTest.csv
Volume Fraction,Matrix Density (kg/m^3),Matrix Elastic Modulus (MPa),Matrix Yield Strength (MPa),Matrix Hardening Parameter,Temperature (K),Filler Density (kg/m^3),Filler Elastic Modulus 1,Filler Poisson 1,Composite Elastic Modulus (MPa)
0.38,1490,2542.37,106.557,0.444529,298,1770,220000,0.2,5600.32
0.38,1490,2662.56,252.049,0.545588,233,2540,75000,0.2,5838.2
0.38,1490,2576.27,79.918,0.346129,333,2540,75000,0.2,5645.09
0.38,1490,2621.47,149.59,0.431152,273,1470,150000,0.35,5424.92
0.38,1490,1152.54,43.0328,0.277231,393,1470,150000,0.35,2509.82
0.38,1490,2542.37,106.557,0.444529,298,2530,85000,0.35,5592
0.37,1200,1186.21,89.6552,0.229998,233,1770,220000,0.2,2612.46
0.37,1200,1396.55,62.069,0.346699,333,1770,220000,0.2,3057.31
0.37,1200,1354.23,77.5862,0.232567,273,2540,75000,0.2,2971.16
0.37,1200,1075.86,46.5517,0.285244,393,2540,75000,0.2,2374.26
0.37,1200,1655.17,67.2414,0.544621,298,1470,150000,0.35,3444.79
0.37,1200,1186.21,89.6552,0.229998,233,2530,85000,0.35,2617.85
0.37,1200,1396.55,62.069,0.346699,333,2530,85000,0.35,3063.83
0.36,1180,2742.62,149.59,0.431152,273,1770,220000,0.2,5709.76
0.36,1180,1567.21,43.0328,0.277231,393,1770,220000,0.2,3340.44
0.36,1180,2448.77,106.557,0.444529,298,2540,75000,0.2,5113.91
0.36,1180,2658.67,252.049,0.545588,233,1470,150000,0.35,5266.62
0.36,1180,1652.92,79.918,0.346129,333,1470,150000,0.35,3361.96
0.36,1180,2742.62,149.59,0.431152,273,2530,85000,0.35,5704.5
0.36,1180,1567.21,43.0328,0.277231,393,2530,85000,0.35,3344.72

File: ModulasStrainTrain.csv
Volume Fraction,Matrix Density (kg/m^3),Matrix Elastic Modulus (MPa),Matrix Yield Strength (MPa),Matrix Hardening Parameter,Temperature (K),Filler Density (kg/m^3),Filler Elastic Modulus 1,Filler Poisson 1,Elastic Modulus
0.38,1490,2662.56,252.049,0.545588,233,1770,220000,0.2,5850.72
0.38,1490,2621.47,149.59,0.431152,273,1770,220000,0.2,5765.23
0.38,1490,2576.27,79.918,0.346129,333,1770,220000,0.2,5663.62
0.38,1490,1152.54,43.0328,0.277231,393,1770,220000,0.2,2613.94
0.38,1490,2621.47,149.59,0.431152,273,2540,75000,0.2,5740.89
0.38,1490,2542.37,106.557,0.444529,298,2540,75000,0.2,5578.7
0.38,1490,1152.54,43.0328,0.277231,393,2540,75000,0.2,2621.31
0.38,1490,2662.56,252.049,0.545588,233,1470,150000,0.35,5511.4
0.38,1490,2542.37,106.557,0.444529,298,1470,150000,0.35,5275.03
0.38,1490,2576.27,79.918,0.346129,333,1470,150000,0.35,5331.47
0.38,1490,2662.56,252.049,0.545588,233,2530,85000,0.35,5849.36
0.38,1490,2621.47,149.59,0.431152,273,2530,85000,0.35,5751.14
0.38,1490,2576.27,79.918,0.346129,333,2530,85000,0.35,5654.85
0.38,1490,1152.54,43.0328,0.277231,393,2530,85000,0.35,2623.46
0.37,1200,1354.23,77.5862,0.232567,273,1770,220000,0.2,2970.82
0.37,1200,1655.17,67.2414,0.544621,298,1770,220000,0.2,3599.81
0.37,1200,1075.86,46.5517,0.285244,393,1770,220000,0.2,2373.37
0.37,1200,1186.21,89.6552,0.229998,233,2540,75000,0.2,2615.47
0.37,1200,1655.17,67.2414,0.544621,298,2540,75000,0.2,3597.72
0.37,1200,1396.55,62.069,0.346699,333,2540,75000,0.2,3063.29
0.37,1200,1186.21,89.6552,0.229998,233,1470,150000,0.35,2514.07
0.37,1200,1354.23,77.5862,0.232567,273,1470,150000,0.35,2850.43
0.37,1200,1396.55,62.069,0.346699,333,1470,150000,0.35,2934.61
0.37,1200,1075.86,46.5517,0.285244,393,1470,150000,0.35,2289.05
0.37,1200,1354.23,77.5862,0.232567,273,2530,85000,0.35,2974.15
0.37,1200,1655.17,67.2414,0.544621,298,2530,85000,0.35,3601.9
0.37,1200,1075.86,46.5517,0.285244,393,2530,85000,0.35,2376.1
0.36,1180,2658.67,252.049,0.545588,233,1770,220000,0.2,5550.67
0.36,1180,2448.77,106.557,0.444529,298,1770,220000,0.2,5121.77
0.36,1180,1652.92,79.918,0.346129,333,1770,220000,0.2,3513.73
0.36,1180,2658.67,252.049,0.545588,233,2540,75000,0.2,5529.33
0.36,1180,2742.62,149.59,0.431152,273,2540,75000,0.2,5685.54
0.36,1180,1652.92,79.918,0.346129,333,2540,75000,0.2,3514.2
0.36,1180,1567.21,43.0328,0.277231,393,2540,75000,0.2,3340.94
0.36,1180,2742.62,149.59,0.431152,273,1470,150000,0.35,5418.63
0.36,1180,2448.77,106.557,0.444529,298,1470,150000,0.35,4867.38
0.36,1180,1567.21,43.0328,0.277231,393,1470,150000,0.35,3202.56
0.36,1180,2658.67,252.049,0.545588,233,2530,85000,0.35,5536.47
0.36,1180,2448.77,106.557,0.444529,298,2530,85000,0.35,5122.84
0.36,1180,1652.92,79.918,0.346129,333,2530,85000,0.35,3518.29

File: resilience_srTest.csv
Volume Fraction,Matrix Density (kg/m^3),Matrix Elastic Modulus (MPa),Matrix Yield Strength (MPa),Matrix Hardening Parameter,Temperature (K),Filler Density (kg/m^3),Filler Elastic Modulus 1,Filler Poisson 1,Resilience
0.38,1490,2542.37,106.557,0.444529,298,1770,220000,0.2,1.70247
0.38,1490,2662.56,252.049,0.545588,233,2540,75000,0.2,7.69734
0.38,1490,2576.27,79.918,0.346129,333,2540,75000,0.2,1.18269
0.38,1490,2621.47,149.59,0.431152,273,1470,150000,0.35,2.80938
0.38,1490,1152.54,43.0328,0.277231,393,1470,150000,0.35,0.667993
0.38,1490,2542.37,106.557,0.444529,298,2530,85000,0.35,1.83044
0.37,1200,1186.21,89.6552,0.229998,233,1770,220000,0.2,1.45343
0.37,1200,1396.55,62.069,0.346699,333,1770,220000,0.2,0.743778
0.37,1200,1354.23,77.5862,0.232567,273,2540,75000,0.2,1.14238
0.37,1200,1075.86,46.5517,0.285244,393,2540,75000,0.2,2.11645
0.37,1200,1655.17,67.2414,0.544621,298,1470,150000,0.35,0.97018
0.37,1200,1186.21,89.6552,0.229998,233,2530,85000,0.35,1.48579
0.37,1200,1396.55,62.069,0.346699,333,2530,85000,0.35,0.772227
0.36,1180,2742.62,149.59,0.431152,273,1770,220000,0.2,1.55785
0.36,1180,1567.21,43.0328,0.277231,393,1770,220000,0.2,3.067
0.36,1180,2448.77,106.557,0.444529,298,2540,75000,0.2,0.557003
0.36,1180,2658.67,252.049,0.545588,233,1470,150000,0.35,1.66461
0.36,1180,1652.92,79.918,0.346129,333,1470,150000,0.35,7.57004
0.36,1180,2742.62,149.59,0.431152,273,2530,85000,0.35,1.64854
0.36,1180,1567.21,43.0328,0.277231,393,2530,85000,0.35,0.588436

File: resilience_srTrain.csv
Volume Fraction,Matrix Density (kg/m^3),Matrix Elastic Modulus (MPa),Matrix Yield Strength (MPa),Matrix Hardening Parameter,Temperature (K),Filler Density (kg/m^3),Filler Elastic Modulus 1,Filler Poisson 1,Resilience
0.38,1490,2662.56,252.049,0.545588,233,1770,220000,0.2,7.06098
0.38,1490,2621.47,149.59,0.431152,273,1770,220000,0.2,2.89004
0.38,1490,2576.27,79.918,0.346129,333,1770,220000,0.2,1.10033
0.38,1490,1152.54,43.0328,0.277231,393,1770,220000,0.2,0.697607
0.38,1490,2621.47,149.59,0.431152,273,2540,75000,0.2,3.12085
0.38,1490,2542.37,106.557,0.444529,298,2540,75000,0.2,1.84159
0.38,1490,1152.54,43.0328,0.277231,393,2540,75000,0.2,0.705558
0.38,1490,2662.56,252.049,0.545588,233,1470,150000,0.35,6.95805
0.38,1490,2542.37,106.557,0.444529,298,1470,150000,0.35,1.65503
0.38,1490,2576.27,79.918,0.346129,333,1470,150000,0.35,1.07028
0.38,1490,2662.56,252.049,0.545588,233,2530,85000,0.35,7.65401
0.38,1490,2621.47,149.59,0.431152,273,2530,85000,0.35,3.10431
0.38,1490,2576.27,79.918,0.346129,333,2530,85000,0.35,1.20007
0.38,1490,1152.54,43.0328,0.277231,393,2530,85000,0.35,0.703452
0.37,1200,1354.23,77.5862,0.232567,273,1770,220000,0.2,1.09982
0.37,1200,1655.17,67.2414,0.544621,298,1770,220000,0.2,0.997162
0.37,1200,1075.86,46.5517,0.285244,393,1770,220000,0.2,2.24281
0.37,1200,1186.21,89.6552,0.229998,233,2540,75000,0.2,1.49033
0.37,1200,1655.17,67.2414,0.544621,298,2540,75000,0.2,1.03379
0.37,1200,1396.55,62.069,0.346699,333,2540,75000,0.2,0.774155
0.37,1200,1186.21,89.6552,0.229998,233,1470,150000,0.35,1.43717
0.37,1200,1354.23,77.5862,0.232567,273,1470,150000,0.35,1.03999
0.37,1200,1396.55,62.069,0.346699,333,1470,150000,0.35,0.735213
0.37,1200,1075.86,46.5517,0.285244,393,1470,150000,0.35,2.25715
0.37,1200,1354.23,77.5862,0.232567,273,2530,85000,0.35,1.13724
0.37,1200,1655.17,67.2414,0.544621,298,2530,85000,0.35,1.03073
0.37,1200,1075.86,46.5517,0.285244,393,2530,85000,0.35,7.09865
0.36,1180,2658.67,252.049,0.545588,233,1770,220000,0.2,1.7597
0.36,1180,2448.77,106.557,0.444529,298,1770,220000,0.2,0.53797
0.36,1180,1652.92,79.918,0.346129,333,1770,220000,0.2,7.67519
0.36,1180,2658.67,252.049,0.545588,233,2540,75000,0.2,1.87659
0.36,1180,2742.62,149.59,0.431152,273,2540,75000,0.2,1.65613
0.36,1180,1652.92,79.918,0.346129,333,2540,75000,0.2,6.85144
0.36,1180,1567.21,43.0328,0.277231,393,2540,75000,0.2,2.69207
0.36,1180,2742.62,149.59,0.431152,273,1470,150000,0.35,1.54864
0.36,1180,2448.77,106.557,0.444529,298,1470,150000,0.35,0.516423
0.36,1180,1567.21,43.0328,0.277231,393,1470,150000,0.35,3.02591
0.36,1180,2658.67,252.049,0.545588,233,2530,85000,0.35,1.86618
0.36,1180,2448.77,106.557,0.444529,298,2530,85000,0.35,1.92343
0.36,1180,1652.92,79.918,0.346129,333,2530,85000,0.35,1.70675

File: strain_resilience.csv
Volume Fraction,Matrix Density (kg/m^3),Matrix Elastic Modulus (MPa),Matrix Poisson's Ratio,Matrix Yield Strength (MPa),Matrix Hardening Parameter,Temperature (K),Filler Density (kg/m^3),Filler Elastic Modulus 1,Filler Elastic Modulus 2,Filler Elastic Modulus 3,Filler Poisson 1,Filler Poisson 2,Filler Poisson 3,Filler Shear 1,Filler Shear 2,Filler Shear 3,Resilience
0.38,1490,2662.56,0.38,252.049,0.545588,233,1770,220000,14000,14000,0.2,0.2,0.25,9000,9000,4600,7.06098
0.38,1490,2621.47,0.38,149.59,0.431152,273,1770,220000,14000,14000,0.2,0.2,0.25,9000,9000,4600,2.89004
0.38,1490,2542.37,0.38,106.557,0.444529,298,1770,220000,14000,14000,0.2,0.2,0.25,9000,9000,4600,1.70247
0.38,1490,2576.27,0.38,79.918,0.346129,333,1770,220000,14000,14000,0.2,0.2,0.25,9000,9000,4600,1.10033
0.38,1490,1152.54,0.38,43.0328,0.277231,393,1770,220000,14000,14000,0.2,0.2,0.25,9000,9000,4600,0.697607
0.38,1490,2662.56,0.38,252.049,0.545588,233,2540,75000,75000,75000,0.2,0.2,0.22,30000,30000,30000,7.69734
0.38,1490,2621.47,0.38,149.59,0.431152,273,2540,75000,75000,75000,0.2,0.2,0.22,30000,30000,30000,3.12085
0.38,1490,2542.37,0.38,106.557,0.444529,298,2540,75000,75000,75000,0.2,0.2,0.22,30000,30000,30000,1.84159
0.38,1490,2576.27,0.38,79.918,0.346129,333,2540,75000,75000,75000,0.2,0.2,0.22,30000,30000,30000,1.18269
0.38,1490,1152.54,0.38,43.0328,0.277231,393,2540,75000,75000,75000,0.2,0.2,0.22,30000,30000,30000,0.705558
0.38,1490,2662.56,0.38,252.049,0.545588,233,1470,150000,4200,4200,0.35,0.35,0.35,2900,2900,1500,6.95805
0.38,1490,2621.47,0.38,149.59,0.431152,273,1470,150000,4200,4200,0.35,0.35,0.35,2900,2900,1500,2.80938
0.38,1490,2542.37,0.38,106.557,0.444529,298,1470,150000,4200,4200,0.35,0.35,0.35,2900,2900,1500,1.65503
0.38,1490,2576.27,0.38,79.918,0.346129,333,1470,150000,4200,4200,0.35,0.35,0.35,2900,2900,1500,1.07028
0.38,1490,1152.54,0.38,43.0328,0.277231,393,1470,150000,4200,4200,0.35,0.35,0.35,2900,2900,1500,0.667993
0.38,1490,2662.56,0.38,252.049,0.545588,233,2530,85000,85000,85000,0.35,0.35,0.35,36000,36000,36000,7.65401
0.38,1490,2621.47,0.38,149.59,0.431152,273,2530,85000,85000,85000,0.35,0.35,0.35,36000,36000,36000,3.10431
0.38,1490,2542.37,0.38,106.557,0.444529,298,2530,85000,85000,85000,0.35,0.35,0.35,36000,36000,36000,1.83044
0.38,1490,2576.27,0.38,79.918,0.346129,333,2530,85000,85000,85000,0.35,0.35,0.35,36000,36000,36000,1.20007
0.38,1490,1152.54,0.38,43.0328,0.277231,393,2530,85000,85000,85000,0.35,0.35,0.35,36000,36000,36000,0.703452
0.37,1200,1186.21,0.37,89.6552,0.229998,233,1770,220000,14000,14000,0.2,0.2,0.25,9000,9000,4600,1.45343
0.37,1200,1354.23,0.37,77.5862,0.232567,273,1770,220000,14000,14000,0.2,0.2,0.25,9000,9000,4600,1.09982
0.37,1200,1655.17,0.37,67.2414,0.544621,298,1770,220000,14000,14000,0.2,0.2,0.25,9000,9000,4600,0.997162
0.37,1200,1396.55,0.37,62.069,0.346699,333,1770,220000,14000,14000,0.2,0.2,0.25,9000,9000,4600,0.743778
0.37,1200,1075.86,0.37,46.5517,0.285244,393,1770,220000,14000,14000,0.2,0.2,0.25,9000,9000,4600,2.24281
0.37,1200,1186.21,0.37,89.6552,0.229998,233,2540,75000,75000,75000,0.2,0.2,0.22,30000,30000,30000,1.49033
0.37,1200,1354.23,0.37,77.5862,0.232567,273,2540,75000,75000,75000,0.2,0.2,0.22,30000,30000,30000,1.14238
0.37,1200,1655.17,0.37,67.2414,0.544621,298,2540,75000,75000,75000,0.2,0.2,0.22,30000,30000,30000,1.03379
0.37,1200,1396.55,0.37,62.069,0.346699,333,2540,75000,75000,75000,0.2,0.2,0.22,30000,30000,30000,0.774155
0.37,1200,1075.86,0.37,46.5517,0.285244,393,2540,75000,75000,75000,0.2,0.2,0.22,30000,30000,30000,2.11645
0.37,1200,1186.21,0.37,89.6552,0.229998,233,1470,150000,4200,4200,0.35,0.35,0.35,2900,2900,1500,1.43717
0.37,1200,1354.23,0.37,77.5862,0.232567,273,1470,150000,4200,4200,0.35,0.35,0.35,2900,2900,1500,1.03999
0.37,1200,1655.17,0.37,67.2414,0.544621,298,1470,150000,4200,4200,0.35,0.35,0.35,2900,2900,1500,0.97018
0.37,1200,1396.55,0.37,62.069,0.346699,333,1470,150000,4200,4200,0.35,0.35,0.35,2900,2900,1500,0.735213
0.37,1200,1075.86,0.37,46.5517,0.285244,393,1470,150000,4200,4200,0.35,0.35,0.35,2900,2900,1500,2.25715
0.37,1200,1186.21,0.37,89.6552,0.229998,233,2530,85000,85000,85000,0.35,0.35,0.35,36000,36000,36000,1.48579
0.37,1200,1354.23,0.37,77.5862,0.232567,273,2530,85000,85000,85000,0.35,0.35,0.35,36000,36000,36000,1.13724
0.37,1200,1655.17,0.37,67.2414,0.544621,298,2530,85000,85000,85000,0.35,0.35,0.35,36000,36000,36000,1.03073
0.37,1200,1396.55,0.37,62.069,0.346699,333,2530,85000,85000,85000,0.35,0.35,0.35,36000,36000,36000,0.772227
0.37,1200,1075.86,0.37,46.5517,0.285244,393,2530,85000,85000,85000,0.35,0.35,0.35,36000,36000,36000,7.09865
0.36,1180,2658.67,0.36,252.049,0.545588,233,1770,220000,14000,14000,0.2,0.2,0.25,9000,9000,4600,1.7597
0.36,1180,2742.62,0.36,149.59,0.431152,273,1770,220000,14000,14000,0.2,0.2,0.25,9000,9000,4600,1.55785
0.36,1180,2448.77,0.36,106.557,0.444529,298,1770,220000,14000,14000,0.2,0.2,0.25,9000,9000,4600,0.53797
0.36,1180,1652.92,0.36,79.918,0.346129,333,1770,220000,14000,14000,0.2,0.2,0.25,9000,9000,4600,7.67519
0.36,1180,1567.21,0.36,43.0328,0.277231,393,1770,220000,14000,14000,0.2,0.2,0.25,9000,9000,4600,3.067
0.36,1180,2658.67,0.36,252.049,0.545588,233,2540,75000,75000,75000,0.2,0.2,0.22,30000,30000,30000,1.87659
0.36,1180,2742.62,0.36,149.59,0.431152,273,2540,75000,75000,75000,0.2,0.2,0.22,30000,30000,30000,1.65613
0.36,1180,2448.77,0.36,106.557,0.444529,298,2540,75000,75000,75000,0.2,0.2,0.22,30000,30000,30000,0.557003
0.36,1180,1652.92,0.36,79.918,0.346129,333,2540,75000,75000,75000,0.2,0.2,0.22,30000,30000,30000,6.85144
0.36,1180,1567.21,0.36,43.0328,0.277231,393,2540,75000,75000,75000,0.2,0.2,0.22,30000,30000,30000,2.69207
0.36,1180,2658.67,0.36,252.049,0.545588,233,1470,150000,4200,4200,0.35,0.35,0.35,2900,2900,1500,1.66461
0.36,1180,2742.62,0.36,149.59,0.431152,273,1470,150000,4200,4200,0.35,0.35,0.35,2900,2900,1500,1.54864
0.36,1180,2448.77,0.36,106.557,0.444529,298,1470,150000,4200,4200,0.35,0.35,0.35,2900,2900,1500,0.516423
0.36,1180,1652.92,0.36,79.918,0.346129,333,1470,150000,4200,4200,0.35,0.35,0.35,2900,2900,1500,7.57004
0.36,1180,1567.21,0.36,43.0328,0.277231,393,1470,150000,4200,4200,0.35,0.35,0.35,2900,2900,1500,3.02591
0.36,1180,2658.67,0.36,252.049,0.545588,233,2530,85000,85000,85000,0.35,0.35,0.35,36000,36000,36000,1.86618
0.36,1180,2742.62,0.36,149.59,0.431152,273,2530,85000,85000,85000,0.35,0.35,0.35,36000,36000,36000,1.64854
0.36,1180,2448.77,0.36,106.557,0.444529,298,2530,85000,85000,85000,0.35,0.35,0.35,36000,36000,36000,1.92343
0.36,1180,1652.92,0.36,79.918,0.346129,333,2530,85000,85000,85000,0.35,0.35,0.35,36000,36000,36000,1.70675
0.36,1180,1567.21,0.36,43.0328,0.277231,393,2530,85000,85000,85000,0.35,0.35,0.35,36000,36000,36000,0.588436