Folder: composite (part 2)

File: Toughness_srTrain.csv
Volume Fraction,Matrix Density (kg/m^3),Matrix Elastic Modulus (MPa),Matrix Yield Strength (MPa),Matrix Hardening Parameter,Temperature (K),Filler Density (kg/m^3),Filler Elastic Modulus 1,Filler Poisson 1,Composite Elastic Modulus (MPa),Toughness
0.38,1490,2662.56,252.049,0.545588,233,1770,220000,0.2,5850.72,13.7502
0.38,1490,2621.47,149.59,0.431152,273,1770,220000,0.2,5765.23,6.79285
0.38,1490,2576.27,79.918,0.346129,333,1770,220000,0.2,5663.62,3.34056
0.38,1490,1152.54,43.0328,0.277231,393,1770,220000,0.2,2613.94,1.87904
0.38,1490,2621.47,149.59,0.431152,273,2540,75000,0.2,5740.89,7.19404
0.38,1490,2542.37,106.557,0.444529,298,2540,75000,0.2,5578.7,4.84531
0.38,1490,1152.54,43.0328,0.277231,393,2540,75000,0.2,2621.31,1.93352
0.38,1490,2662.56,252.049,0.545588,233,1470,150000,0.35,5511.4,13.3101
0.38,1490,2542.37,106.557,0.444529,298,1470,150000,0.35,5275.03,4.40675
0.38,1490,2576.27,79.918,0.346129,333,1470,150000,0.35,5331.47,3.21535
0.38,1490,2662.56,252.049,0.545588,233,2530,85000,0.35,5849.36,14.3899
0.38,1490,2621.47,149.59,0.431152,273,2530,85000,0.35,5751.14,7.13775
0.38,1490,2576.27,79.918,0.346129,333,2530,85000,0.35,5654.85,3.52011
0.38,1490,1152.54,43.0328,0.277231,393,2530,85000,0.35,2623.46,1.92609
0.37,1200,1354.23,77.5862,0.232567,273,1770,220000,0.2,2970.82,2.88907
0.37,1200,1655.17,67.2414,0.544621,298,1770,220000,0.2,3599.81,2.55033
0.37,1200,1075.86,46.5517,0.285244,393,1770,220000,0.2,2373.37,4.76013
0.37,1200,1186.21,89.6552,0.229998,233,2540,75000,0.2,2615.47,3.58982
0.37,1200,1655.17,67.2414,0.544621,298,2540,75000,0.2,3597.72,2.63162
0.37,1200,1396.55,62.069,0.346699,333,2540,75000,0.2,3063.29,2.00998
0.37,1200,1186.21,89.6552,0.229998,233,1470,150000,0.35,2514.07,3.40721
0.37,1200,1354.23,77.5862,0.232567,273,1470,150000,0.35,2850.43,2.81182
0.37,1200,1396.55,62.069,0.346699,333,1470,150000,0.35,2934.61,1.92501
0.37,1200,1075.86,46.5517,0.285244,393,1470,150000,0.35,2289.05,4.74505
0.37,1200,1354.23,77.5862,0.232567,273,2530,85000,0.35,2974.15,2.98282
0.37,1200,1655.17,67.2414,0.544621,298,2530,85000,0.35,3601.9,2.62011
0.37,1200,1075.86,46.5517,0.285244,393,2530,85000,0.35,2376.1,13.7753
0.36,1180,2658.67,252.049,0.545588,233,1770,220000,0.2,5550.67,4.65443
0.36,1180,2448.77,106.557,0.444529,298,1770,220000,0.2,5121.77,1.69668
0.36,1180,1652.92,79.918,0.346129,333,1770,220000,0.2,3513.73,14.4705
0.36,1180,2658.67,252.049,0.545588,233,2540,75000,0.2,5529.33,4.90543
0.36,1180,2742.62,149.59,0.431152,273,2540,75000,0.2,5685.54,4.12248
0.36,1180,1652.92,79.918,0.346129,333,2540,75000,0.2,3514.2,13.3357
0.36,1180,1567.21,43.0328,0.277231,393,2540,75000,0.2,3340.94,6.45816
0.36,1180,2742.62,149.59,0.431152,273,1470,150000,0.35,5418.63,3.87063
0.36,1180,2448.77,106.557,0.444529,298,1470,150000,0.35,4867.38,1.65505
0.36,1180,1567.21,43.0328,0.277231,393,1470,150000,0.35,3202.56,7.02511
0.36,1180,2658.67,252.049,0.545588,233,2530,85000,0.35,5536.47,4.86962
0.36,1180,2448.77,106.557,0.444529,298,2530,85000,0.35,5122.84,4.98003
0.36,1180,1652.92,79.918,0.346129,333,2530,85000,0.35,3518.29,4.1925
,,,,,,,,,,
Volume Fraction,Matrix Density (kg/m^3),Matrix Elastic Modulus (MPa),Matrix Yield Strength (MPa),Matrix Hardening Parameter,Temperature (K),Filler Density (kg/m^3),Filler Elastic Modulus 1,Filler Poisson 1,Composite Elastic Modulus (MPa),Composite Toughness (MJ/m^3)
0.38,1490,2542.37,106.557,0.444529,298,1770,220000,0.2,5600.32,4.56985
0.38,1490,2662.56,252.049,0.545588,233,2540,75000,0.2,5838.2,14.4854
0.38,1490,2576.27,79.918,0.346129,333,2540,75000,0.2,5645.09,3.54965
0.38,1490,2621.47,149.59,0.431152,273,1470,150000,0.35,5424.92,6.55592
0.38,1490,1152.54,43.0328,0.277231,393,1470,150000,0.35,2509.82,1.84006
0.38,1490,2542.37,106.557,0.444529,298,2530,85000,0.35,5592,4.80627
0.37,1200,1186.21,89.6552,0.229998,233,1770,220000,0.2,2612.46,3.48364
0.37,1200,1396.55,62.069,0.346699,333,1770,220000,0.2,3057.31,1.95857
0.37,1200,1354.23,77.5862,0.232567,273,2540,75000,0.2,2971.16,2.99805
0.37,1200,1075.86,46.5517,0.285244,393,2540,75000,0.2,2374.26,4.55429
0.37,1200,1655.17,67.2414,0.544621,298,1470,150000,0.35,3444.79,2.49083
0.37,1200,1186.21,89.6552,0.229998,233,2530,85000,0.35,2617.85,3.57556
0.37,1200,1396.55,62.069,0.346699,333,2530,85000,0.35,3063.83,2.00315
0.36,1180,2742.62,149.59,0.431152,273,1770,220000,0.2,5709.76,3.97459
0.36,1180,1567.21,43.0328,0.277231,393,1770,220000,0.2,3340.44,7.07895
0.36,1180,2448.77,106.557,0.444529,298,2540,75000,0.2,5113.91,1.75924
0.36,1180,2658.67,252.049,0.545588,233,1470,150000,0.35,5266.62,4.49886
0.36,1180,1652.92,79.918,0.346129,333,1470,150000,0.35,3361.96,14.3815
0.36,1180,2742.62,149.59,0.431152,273,2530,85000,0.35,5704.5,4.101959
0.36,1180,1567.21,43.0328,0.277231,393,2530,85000,0.35,3344.72,1.78741

File: ys_rate.csv
Volume Fraction,Matrix Density (kg/m^3),Matrix Elastic Modulus (MPa),Matrix Yield Strength (MPa),Matrix Hardening Parameter,Temperature (K),Filler Density (kg/m^3),Filler Elastic Modulus 1,Filler Poisson 1,Yield Strength
0.38,1490,2542.37,106.557,0.444529,298,1770,220000,0.2,129.846
0.38,1490,2662.56,252.049,0.545588,233,2540,75000,0.2,293.007
0.38,1490,2576.27,79.918,0.346129,333,2540,75000,0.2,109.248
0.38,1490,2621.47,149.59,0.431152,273,1470,150000,0.35,166.949
0.38,1490,1152.54,43.0328,0.277231,393,1470,150000,0.35,54.3294
0.38,1490,2542.37,106.557,0.444529,298,2530,85000,0.35,135.109
0.37,1200,1186.21,89.6552,0.229998,233,1770,220000,0.2,99.4528
0.37,1200,1396.55,62.069,0.346699,333,1770,220000,0.2,71.9723
0.37,1200,1354.23,77.5862,0.232567,273,2540,75000,0.2,88.8058
0.37,1200,1075.86,46.5517,0.285244,393,2540,75000,0.2,55.8567
0.37,1200,1655.17,67.2414,0.544621,298,1470,150000,0.35,79.1092
0.37,1200,1186.21,89.6552,0.229998,233,2530,85000,0.35,102.236
0.37,1200,1396.55,62.069,0.346699,333,2530,85000,0.35,72.6214
0.36,1180,2742.62,149.59,0.431152,273,1770,220000,0.2,174.368
0.36,1180,1567.21,43.0328,0.277231,393,1770,220000,0.2,57.0214
0.36,1180,2448.77,106.557,0.444529,298,2540,75000,0.2,134.059
0.36,1180,2658.67,252.049,0.545588,233,1470,150000,0.35,268.718
0.36,1180,1652.92,79.918,0.346129,333,1470,150000,0.35,98.5792
0.36,1180,2742.62,149.59,0.431152,273,2530,85000,0.35,178.233
0.36,1180,1567.21,43.0328,0.277231,393,2530,85000,0.35,58.5954

File: ys_rateTrain.csv
Volume Fraction,Matrix Density (kg/m^3),Matrix Elastic Modulus (MPa),Matrix Yield Strength (MPa),Matrix Hardening Parameter,Temperature (K),Filler Density (kg/m^3),Filler Elastic Modulus 1,Filler Poisson 1,Yield Strength
0.38,1490,2662.56,252.049,0.545588,233,1770,220000,0.2,279.767
0.38,1490,2621.47,149.59,0.431152,273,1770,220000,0.2,175.415
0.38,1490,2576.27,79.918,0.346129,333,1770,220000,0.2,104.573
0.38,1490,1152.54,43.0328,0.277231,393,1770,220000,0.2,56.8109
0.38,1490,2621.47,149.59,0.431152,273,2540,75000,0.2,182.123
0.38,1490,2542.37,106.557,0.444529,298,2540,75000,0.2,135.622
0.38,1490,1152.54,43.0328,0.277231,393,2540,75000,0.2,57.1854
0.38,1490,2662.56,252.049,0.545588,233,1470,150000,0.35,269.594
0.38,1490,2542.37,106.557,0.444529,298,1470,150000,0.35,125.465
0.38,1490,2576.27,79.918,0.346129,333,1470,150000,0.35,100.098
0.38,1490,2662.56,252.049,0.545588,233,2530,85000,0.35,291.843
0.38,1490,2621.47,149.59,0.431152,273,2530,85000,0.35,181.429
0.38,1490,2576.27,79.918,0.346129,333,2530,85000,0.35,109.717
0.38,1490,1152.54,43.0328,0.277231,393,2530,85000,0.35,57.085
0.37,1200,1354.23,77.5862,0.232567,273,1770,220000,0.2,85.099
0.37,1200,1655.17,67.2414,0.544621,298,1770,220000,0.2,80.8949
0.37,1200,1075.86,46.5517,0.285244,393,1770,220000,0.2,54.5063
0.37,1200,1186.21,89.6552,0.229998,233,2540,75000,0.2,102.517
0.37,1200,1655.17,67.2414,0.544621,298,2540,75000,0.2,84.0981
0.37,1200,1396.55,62.069,0.346699,333,2540,75000,0.2,72.8117
0.37,1200,1186.21,89.6552,0.229998,233,1470,150000,0.35,96.7513
0.37,1200,1354.23,77.5862,0.232567,273,1470,150000,0.35,82.2676
0.37,1200,1396.55,62.069,0.346699,333,1470,150000,0.35,69.9077
0.37,1200,1075.86,46.5517,0.285244,393,1470,150000,0.35,52.4786
0.37,1200,1354.23,77.5862,0.232567,273,2530,85000,0.35,88.6087
0.37,1200,1655.17,67.2414,0.544621,298,2530,85000,0.35,83.8653
0.37,1200,1075.86,46.5517,0.285244,393,2530,85000,0.35,55.7638
0.36,1180,2658.67,252.049,0.545588,233,1770,220000,0.2,276.843
0.36,1180,2448.77,106.557,0.444529,298,1770,220000,0.2,130.169
0.36,1180,1652.92,79.918,0.346129,333,1770,220000,0.2,101.606
0.36,1180,2658.67,252.049,0.545588,233,2540,75000,0.2,287.198
0.36,1180,2742.62,149.59,0.431152,273,2540,75000,0.2,178.897
0.36,1180,1652.92,79.918,0.346129,333,2540,75000,0.2,105.851
0.36,1180,1567.21,43.0328,0.277231,393,2540,75000,0.2,58.6826
0.36,1180,2742.62,149.59,0.431152,273,1470,150000,0.35,166.024
0.36,1180,2448.77,106.557,0.444529,298,1470,150000,0.35,124.09
0.36,1180,1567.21,43.0328,0.277231,393,1470,150000,0.35,54.9943
0.36,1180,2658.67,252.049,0.545588,233,2530,85000,0.35,285.791
0.36,1180,2448.77,106.557,0.444529,298,2530,85000,0.35,133.555
0.36,1180,1652.92,79.918,0.346129,333,2530,85000,0.35,105.268